Project44 DipoleDipole_4
  5.0000
11
3
Type of measurement (0=app. resistivity,1=resistance)
0
347
2
1
Chargeability
msec.
0.1500,1.1000
4      10.00       0.00      15.00       0.00       5.00       0.00       0.00       0.00     586.2089,     16.4984 
4      15.00       0.00      20.00       0.00      10.00       0.00       5.00       0.00     813.2594,     20.1821 
4      20.00       0.00      25.00       0.00      15.00       0.00      10.00       0.00     860.3974,     19.7033 
4      25.00       0.00      30.00       0.00      20.00       0.00      15.00       0.00     453.5995,     15.8611 
4      30.00       0.00      35.00       0.00      25.00       0.00      20.00       0.00     595.8901,     16.0064 
4      35.00       0.00      40.00       0.00      30.00       0.00      25.00       0.00     847.3884,     16.3235 
4      40.00       0.00      45.00       0.00      35.00       0.00      30.00       0.00     198.5848,     10.7098 
4      45.00       0.00      50.00       0.00      40.00       0.00      35.00       0.00     201.7251,      9.3258 
4      50.00       0.00      55.00       0.00      45.00       0.00      40.00       0.00    1338.7426,     24.7165 
4      55.00       0.00      60.00       0.00      50.00       0.00      45.00       0.00    1545.7484,     25.9104 
4      60.00       0.00      65.00       0.00      55.00       0.00      50.00       0.00    1031.2686,     23.6984 
4      65.00       0.00      70.00       0.00      60.00       0.00      55.00       0.00    1519.9716,     26.0903 
4      70.00       0.00      75.00       0.00      65.00       0.00      60.00       0.00    1034.4919,     25.5194 
4      75.00       0.00      80.00       0.00      70.00       0.00      65.00       0.00     899.2435,     21.8375 
4      80.00       0.00      85.00       0.00      75.00       0.00      70.00       0.00    1330.1095,     26.5247 
4      85.00       0.00      90.00       0.00      80.00       0.00      75.00       0.00    1027.3291,     22.5526 
4      90.00       0.00      95.00       0.00      85.00       0.00      80.00       0.00     986.2276,     23.3425 
4      95.00       0.00     100.00       0.00      90.00       0.00      85.00       0.00     458.1385,     16.4312 
4     100.00       0.00     105.00       0.00      95.00       0.00      90.00       0.00     321.7827,     13.2646 
4     105.00       0.00     110.00       0.00     100.00       0.00      95.00       0.00     230.0843,     14.9125 
4     110.00       0.00     115.00       0.00     105.00       0.00     100.00       0.00     337.0121,     15.7148 
4     115.00       0.00     120.00       0.00     110.00       0.00     105.00       0.00     237.2443,     11.8967 
4     120.00       0.00     125.00       0.00     115.00       0.00     110.00       0.00     276.0357,     22.9815 
4     125.00       0.00     130.00       0.00     120.00       0.00     115.00       0.00     157.0488,     12.7530 
4     130.00       0.00     135.00       0.00     125.00       0.00     120.00       0.00     357.1868,     24.2122 
4     135.00       0.00     140.00       0.00     130.00       0.00     125.00       0.00     256.5623,     15.3866 
4     140.00       0.00     145.00       0.00     135.00       0.00     130.00       0.00     806.8854,     22.0105 
4     145.00       0.00     150.00       0.00     140.00       0.00     135.00       0.00     166.9769,     11.6397 
4     150.00       0.00     155.00       0.00     145.00       0.00     140.00       0.00     167.1173,      7.0212 
4     155.00       0.00     160.00       0.00     150.00       0.00     145.00       0.00     170.3576,     18.4650 
4     160.00       0.00     165.00       0.00     155.00       0.00     150.00       0.00     516.5928,     26.5850 
4     165.00       0.00     170.00       0.00     160.00       0.00     155.00       0.00     701.9716,     28.1530 
4     170.00       0.00     175.00       0.00     165.00       0.00     160.00       0.00     860.7075,     28.1986 
4     175.00       0.00     180.00       0.00     170.00       0.00     165.00       0.00    1578.9049,     31.2766 
4     180.00       0.00     185.00       0.00     175.00       0.00     170.00       0.00    2657.9570,     25.7560 
4     185.00       0.00     190.00       0.00     180.00       0.00     175.00       0.00    3120.2236,     23.6580 
4     190.00       0.00     195.00       0.00     185.00       0.00     180.00       0.00    2405.3728,     23.9343 
4     195.00       0.00     200.00       0.00     190.00       0.00     185.00       0.00    1538.5103,      0.0250 
4      20.00       0.00      30.00       0.00      10.00       0.00       0.00       0.00     240.4996,     17.7588 
4      25.00       0.00      35.00       0.00      15.00       0.00       5.00       0.00     133.4566,     12.3348 
4      30.00       0.00      40.00       0.00      20.00       0.00      10.00       0.00     193.1137,     11.9046 
4      35.00       0.00      45.00       0.00      25.00       0.00      15.00       0.00     411.2219,     14.2106 
4      40.00       0.00      50.00       0.00      30.00       0.00      20.00       0.00     177.6686,      6.4544 
4      45.00       0.00      55.00       0.00      35.00       0.00      25.00       0.00     352.0042,     16.4401 
4      50.00       0.00      60.00       0.00      40.00       0.00      30.00       0.00     498.1881,     20.1073 
4      55.00       0.00      65.00       0.00      45.00       0.00      35.00       0.00     385.7939,     19.8299 
4      60.00       0.00      70.00       0.00      50.00       0.00      40.00       0.00     371.2854,     23.7073 
4      65.00       0.00      75.00       0.00      55.00       0.00      45.00       0.00     540.6147,     24.9156 
4      70.00       0.00      80.00       0.00      60.00       0.00      50.00       0.00     719.2726,     25.3611 
4      75.00       0.00      85.00       0.00      65.00       0.00      55.00       0.00     627.4998,     22.2004 
4      80.00       0.00      90.00       0.00      70.00       0.00      60.00       0.00     523.6633,     19.3179 
4      85.00       0.00      95.00       0.00      75.00       0.00      65.00       0.00     804.9533,     22.8621 
4      90.00       0.00     100.00       0.00      80.00       0.00      70.00       0.00     694.3328,     22.1225 
4      95.00       0.00     105.00       0.00      85.00       0.00      75.00       0.00     368.1846,     18.6507 
4     100.00       0.00     110.00       0.00      90.00       0.00      80.00       0.00     241.9604,     16.5200 
4     105.00       0.00     115.00       0.00      95.00       0.00      85.00       0.00     169.9544,     12.9953 
4     110.00       0.00     120.00       0.00     100.00       0.00      90.00       0.00     157.9864,     13.5530 
4     115.00       0.00     125.00       0.00     105.00       0.00      95.00       0.00     157.2867,     18.6105 
4     120.00       0.00     130.00       0.00     110.00       0.00     100.00       0.00     117.8959,     10.5441 
4     125.00       0.00     135.00       0.00     115.00       0.00     105.00       0.00     136.4608,      9.4201 
4     130.00       0.00     140.00       0.00     120.00       0.00     110.00       0.00     101.2709,     12.0854 
4     135.00       0.00     145.00       0.00     125.00       0.00     115.00       0.00      61.3602,     11.0159 
4     140.00       0.00     150.00       0.00     130.00       0.00     120.00       0.00      83.3348,      9.8909 
4     145.00       0.00     155.00       0.00     135.00       0.00     125.00       0.00     137.1247,     16.4065 
4     150.00       0.00     160.00       0.00     140.00       0.00     130.00       0.00     127.7374,     12.6481 
4     155.00       0.00     165.00       0.00     145.00       0.00     135.00       0.00      78.3152,     12.7611 
4     160.00       0.00     170.00       0.00     150.00       0.00     140.00       0.00      48.6671,     12.6507 
4     165.00       0.00     175.00       0.00     155.00       0.00     145.00       0.00     138.0679,     21.9670 
4     170.00       0.00     180.00       0.00     160.00       0.00     150.00       0.00     217.4051,     23.7945 
4     175.00       0.00     185.00       0.00     165.00       0.00     155.00       0.00     289.8892,     24.6221 
4     180.00       0.00     190.00       0.00     170.00       0.00     160.00       0.00     424.9878,     32.5656 
4     185.00       0.00     195.00       0.00     175.00       0.00     165.00       0.00     752.5553,     30.9490 
4     190.00       0.00     200.00       0.00     180.00       0.00     170.00       0.00     722.3658,     30.7763 
4      20.00       0.00      25.00       0.00       5.00       0.00       0.00       0.00     195.3625,     18.3217 
4      25.00       0.00      30.00       0.00      10.00       0.00       5.00       0.00      85.0988,     16.7914 
4      30.00       0.00      35.00       0.00      15.00       0.00      10.00       0.00     104.2946,      9.4442 
4      35.00       0.00      40.00       0.00      20.00       0.00      15.00       0.00     259.7148,     21.8486 
4      40.00       0.00      45.00       0.00      25.00       0.00      20.00       0.00     125.4617,      4.5115 
4      45.00       0.00      50.00       0.00      30.00       0.00      25.00       0.00     238.8823,      7.6385 
4      50.00       0.00      55.00       0.00      35.00       0.00      30.00       0.00     540.7278,     22.4232 
4      55.00       0.00      60.00       0.00      40.00       0.00      35.00       0.00     534.8289,     21.3705 
4      60.00       0.00      65.00       0.00      45.00       0.00      40.00       0.00     169.3755,     14.7095 
4      65.00       0.00      70.00       0.00      50.00       0.00      45.00       0.00     356.1115,     30.2614 
4      70.00       0.00      75.00       0.00      55.00       0.00      50.00       0.00     486.9849,     23.6471 
4      75.00       0.00      80.00       0.00      60.00       0.00      55.00       0.00     722.9135,     22.7111 
4      80.00       0.00      85.00       0.00      65.00       0.00      60.00       0.00     506.9305,     21.0269 
4      85.00       0.00      90.00       0.00      70.00       0.00      65.00       0.00     490.4984,     18.4450 
4      90.00       0.00      95.00       0.00      75.00       0.00      70.00       0.00     858.6604,     24.1114 
4      95.00       0.00     100.00       0.00      80.00       0.00      75.00       0.00     403.0742,     18.0561 
4     100.00       0.00     105.00       0.00      85.00       0.00      80.00       0.00     264.4763,     18.9209 
4     105.00       0.00     110.00       0.00      90.00       0.00      85.00       0.00     159.4720,     15.2889 
4     110.00       0.00     115.00       0.00      95.00       0.00      90.00       0.00     159.6369,     28.9250 
4     115.00       0.00     120.00       0.00     100.00       0.00      95.00       0.00     118.0510,     13.4367 
4     120.00       0.00     125.00       0.00     105.00       0.00     100.00       0.00     108.7742,     12.5322 
4     125.00       0.00     130.00       0.00     110.00       0.00     105.00       0.00     120.9868,      3.7016 
4     130.00       0.00     135.00       0.00     115.00       0.00     110.00       0.00     135.6885,     16.4269 
4     135.00       0.00     140.00       0.00     120.00       0.00     115.00       0.00      61.1884,      1.4557 
4     140.00       0.00     145.00       0.00     125.00       0.00     120.00       0.00      48.7898,      5.2839 
4     145.00       0.00     150.00       0.00     130.00       0.00     125.00       0.00      59.9098,      3.2088 
4     150.00       0.00     155.00       0.00     135.00       0.00     130.00       0.00     178.1811,     17.8738 
4     155.00       0.00     160.00       0.00     140.00       0.00     135.00       0.00      80.9307,     12.0365 
4     160.00       0.00     165.00       0.00     145.00       0.00     140.00       0.00      48.5464,     16.8356 
4     165.00       0.00     170.00       0.00     150.00       0.00     145.00       0.00      38.1454,     28.8259 
4     170.00       0.00     175.00       0.00     155.00       0.00     150.00       0.00     130.7603,     15.5104 
4     175.00       0.00     180.00       0.00     160.00       0.00     155.00       0.00     161.6264,     21.6676 
4     180.00       0.00     185.00       0.00     165.00       0.00     160.00       0.00     177.9473,     23.5667 
4     185.00       0.00     190.00       0.00     170.00       0.00     165.00       0.00     263.3698,     33.6317 
4     190.00       0.00     195.00       0.00     175.00       0.00     170.00       0.00     370.0460,     34.0492 
4     195.00       0.00     200.00       0.00     180.00       0.00     175.00       0.00     309.8556,     31.7051 
4      30.00       0.00      45.00       0.00      15.00       0.00       0.00       0.00      94.1018,     16.8264 
4      35.00       0.00      50.00       0.00      20.00       0.00       5.00       0.00     136.6648,     13.1270 
4      40.00       0.00      55.00       0.00      25.00       0.00      10.00       0.00     113.5647,      6.9319 
4      45.00       0.00      60.00       0.00      30.00       0.00      15.00       0.00     221.7810,     11.1384 
4      50.00       0.00      65.00       0.00      35.00       0.00      20.00       0.00     389.9455,     21.6165 
4      55.00       0.00      70.00       0.00      40.00       0.00      25.00       0.00     403.8367,     24.7649 
4      60.00       0.00      75.00       0.00      45.00       0.00      30.00       0.00     226.6145,     23.9372 
4      65.00       0.00      80.00       0.00      50.00       0.00      35.00       0.00     262.0957,     26.5995 
4      70.00       0.00      85.00       0.00      55.00       0.00      40.00       0.00     337.7765,     23.5471 
4      75.00       0.00      90.00       0.00      60.00       0.00      45.00       0.00     504.9570,     23.4757 
4      80.00       0.00      95.00       0.00      65.00       0.00      50.00       0.00     486.2168,     25.0355 
4      85.00       0.00     100.00       0.00      70.00       0.00      55.00       0.00     456.5966,     21.8480 
4      90.00       0.00     105.00       0.00      75.00       0.00      60.00       0.00     509.8371,     23.6293 
4      95.00       0.00     110.00       0.00      80.00       0.00      65.00       0.00     293.7534,     21.0428 
4     100.00       0.00     115.00       0.00      85.00       0.00      70.00       0.00     188.4382,     20.7624 
4     105.00       0.00     120.00       0.00      90.00       0.00      75.00       0.00     120.6969,     13.6698 
4     110.00       0.00     125.00       0.00      95.00       0.00      80.00       0.00     104.7154,      9.9808 
4     115.00       0.00     130.00       0.00     100.00       0.00      85.00       0.00      80.6684,      7.7881 
4     120.00       0.00     135.00       0.00     105.00       0.00      90.00       0.00      83.6162,     11.1613 
4     125.00       0.00     140.00       0.00     110.00       0.00      95.00       0.00      95.8472,      9.6357 
4     130.00       0.00     145.00       0.00     115.00       0.00     100.00       0.00      98.5536,     10.6032 
4     135.00       0.00     150.00       0.00     120.00       0.00     105.00       0.00      66.6206,      5.9322 
4     140.00       0.00     155.00       0.00     125.00       0.00     110.00       0.00      67.5807,     12.3248 
4     145.00       0.00     160.00       0.00     130.00       0.00     115.00       0.00      81.0328,      6.2488 
4     150.00       0.00     165.00       0.00     135.00       0.00     120.00       0.00     124.7401,     13.5629 
4     155.00       0.00     170.00       0.00     140.00       0.00     125.00       0.00      77.5633,     15.4758 
4     160.00       0.00     175.00       0.00     145.00       0.00     130.00       0.00      49.0605,     10.8024 
4     165.00       0.00     180.00       0.00     150.00       0.00     135.00       0.00      36.9144,     13.4845 
4     170.00       0.00     185.00       0.00     155.00       0.00     140.00       0.00      76.0823,     15.5063 
4     175.00       0.00     190.00       0.00     160.00       0.00     145.00       0.00     100.3959,     19.2376 
4     180.00       0.00     195.00       0.00     165.00       0.00     150.00       0.00     109.4666,     20.3807 
4     185.00       0.00     200.00       0.00     170.00       0.00     155.00       0.00     129.0243,     67.8927 
4      30.00       0.00      35.00       0.00       5.00       0.00       0.00       0.00      63.1135,     15.3630 
4      35.00       0.00      40.00       0.00      10.00       0.00       5.00       0.00     134.6501,     72.1270 
4      40.00       0.00      45.00       0.00      15.00       0.00      10.00       0.00      34.7136,      5.9439 
4      45.00       0.00      50.00       0.00      20.00       0.00      15.00       0.00      85.5006,     36.2744 
4      50.00       0.00      55.00       0.00      25.00       0.00      20.00       0.00     236.2601,     20.5220 
4      55.00       0.00      60.00       0.00      30.00       0.00      25.00       0.00     300.9570,     17.3808 
4      60.00       0.00      65.00       0.00      35.00       0.00      30.00       0.00     315.4514,     27.1397 
4      65.00       0.00      70.00       0.00      40.00       0.00      35.00       0.00     328.6263,     38.8480 
4      70.00       0.00      75.00       0.00      45.00       0.00      40.00       0.00     107.3150,     13.3961 
4      75.00       0.00      80.00       0.00      50.00       0.00      45.00       0.00     268.2042,     46.6831 
4      80.00       0.00      85.00       0.00      55.00       0.00      50.00       0.00     347.0104,     19.4257 
4      85.00       0.00      90.00       0.00      60.00       0.00      55.00       0.00     549.2355,     28.7094 
4      90.00       0.00      95.00       0.00      65.00       0.00      60.00       0.00     478.7297,     25.0973 
4      95.00       0.00     100.00       0.00      70.00       0.00      65.00       0.00     266.1501,     24.4469 
4     100.00       0.00     105.00       0.00      75.00       0.00      70.00       0.00     253.3905,     24.1893 
4     105.00       0.00     110.00       0.00      80.00       0.00      75.00       0.00     116.3181,     17.1160 
4     110.00       0.00     115.00       0.00      85.00       0.00      80.00       0.00     100.2189,     81.9586 
4     115.00       0.00     120.00       0.00      90.00       0.00      85.00       0.00      70.2960,    -83.5366 
4     120.00       0.00     125.00       0.00      95.00       0.00      90.00       0.00      48.7557,     26.4959 
4     125.00       0.00     130.00       0.00     100.00       0.00      95.00       0.00      64.2921,     15.3988 
4     130.00       0.00     135.00       0.00     105.00       0.00     100.00       0.00      96.6610,     18.5876 
4     135.00       0.00     140.00       0.00     110.00       0.00     105.00       0.00      65.4641,     10.2681 
4     140.00       0.00     145.00       0.00     115.00       0.00     110.00       0.00      82.0446,      7.5899 
4     145.00       0.00     150.00       0.00     120.00       0.00     115.00       0.00      55.3521,     50.2700 
4     150.00       0.00     155.00       0.00     125.00       0.00     120.00       0.00      97.8132,     21.9784 
4     155.00       0.00     160.00       0.00     130.00       0.00     125.00       0.00      99.7502,     -0.9526 
4     160.00       0.00     165.00       0.00     135.00       0.00     130.00       0.00      78.5872,     30.3628 
4     165.00       0.00     170.00       0.00     140.00       0.00     135.00       0.00      40.2484,     -3.1316 
4     170.00       0.00     175.00       0.00     145.00       0.00     140.00       0.00      36.0459,      3.0440 
4     175.00       0.00     180.00       0.00     150.00       0.00     145.00       0.00      29.1644,     60.2218 
4     180.00       0.00     185.00       0.00     155.00       0.00     150.00       0.00      79.8275,      6.1475 
4     185.00       0.00     190.00       0.00     160.00       0.00     155.00       0.00      77.3014,     32.3102 
4     190.00       0.00     195.00       0.00     165.00       0.00     160.00       0.00      61.1063,     27.5315 
4     195.00       0.00     200.00       0.00     170.00       0.00     165.00       0.00      49.9323,     47.2356 
4      40.00       0.00      50.00       0.00      10.00       0.00       0.00       0.00      31.2439,   -125.4760 
4      45.00       0.00      55.00       0.00      15.00       0.00       5.00       0.00      54.9154,      0.5852 
4      50.00       0.00      60.00       0.00      20.00       0.00      10.00       0.00      89.6462,      2.3535 
4      55.00       0.00      65.00       0.00      25.00       0.00      15.00       0.00     135.5117,      1.0281 
4      60.00       0.00      70.00       0.00      30.00       0.00      20.00       0.00     135.3617,     26.8958 
4      65.00       0.00      75.00       0.00      35.00       0.00      25.00       0.00     197.4924,     31.8023 
4      70.00       0.00      80.00       0.00      40.00       0.00      30.00       0.00     266.6024,     34.8580 
4      75.00       0.00      85.00       0.00      45.00       0.00      35.00       0.00     163.5536,     27.9534 
4      80.00       0.00      90.00       0.00      50.00       0.00      40.00       0.00     138.2773,      8.0897 
4      85.00       0.00      95.00       0.00      55.00       0.00      45.00       0.00     256.7668,     25.5177 
4      90.00       0.00     100.00       0.00      60.00       0.00      50.00       0.00     367.6153,     33.7096 
4      95.00       0.00     105.00       0.00      65.00       0.00      55.00       0.00     226.7470,     38.8999 
4     100.00       0.00     110.00       0.00      70.00       0.00      60.00       0.00     114.0304,     39.3542 
4     105.00       0.00     115.00       0.00      75.00       0.00      65.00       0.00      86.2514,     57.9571 
4     110.00       0.00     120.00       0.00      80.00       0.00      70.00       0.00      68.4510,      0.3409 
4     115.00       0.00     125.00       0.00      85.00       0.00      75.00       0.00      43.7191,      0.2873 
4     120.00       0.00     130.00       0.00      90.00       0.00      80.00       0.00      33.5258,     -0.8079 
4     125.00       0.00     135.00       0.00      95.00       0.00      85.00       0.00      44.3634,     14.6314 
4     130.00       0.00     140.00       0.00     100.00       0.00      90.00       0.00      43.4115,     11.1852 
4     135.00       0.00     145.00       0.00     105.00       0.00      95.00       0.00      45.0510,     12.1519 
4     140.00       0.00     150.00       0.00     110.00       0.00     100.00       0.00      54.6303,      1.5669 
4     145.00       0.00     155.00       0.00     115.00       0.00     105.00       0.00      97.0831,      0.2664 
4     150.00       0.00     160.00       0.00     120.00       0.00     110.00       0.00     131.5363,     16.6290 
4     155.00       0.00     165.00       0.00     125.00       0.00     115.00       0.00      67.4935,      1.2074 
4     160.00       0.00     170.00       0.00     130.00       0.00     120.00       0.00      53.1286,     23.7694 
4     165.00       0.00     175.00       0.00     135.00       0.00     125.00       0.00      55.9717,     14.9406 
4     170.00       0.00     180.00       0.00     140.00       0.00     130.00       0.00      42.1470,      5.7855 
4     175.00       0.00     185.00       0.00     145.00       0.00     135.00       0.00      28.4834,      1.3046 
4     180.00       0.00     190.00       0.00     150.00       0.00     140.00       0.00      23.4965,      3.5453 
4     185.00       0.00     195.00       0.00     155.00       0.00     145.00       0.00      44.5185,     17.5158 
4     190.00       0.00     200.00       0.00     160.00       0.00     150.00       0.00      45.9354,      5.9921 
4      40.00       0.00      45.00       0.00       5.00       0.00       0.00       0.00      17.7814,    -92.6252 
4      45.00       0.00      50.00       0.00      10.00       0.00       5.00       0.00      45.9961,   -208.0940 
4      50.00       0.00      55.00       0.00      15.00       0.00      10.00       0.00      62.5929,     60.6833 
4      55.00       0.00      60.00       0.00      20.00       0.00      15.00       0.00     102.4277,   -189.3110 
4      60.00       0.00      65.00       0.00      25.00       0.00      20.00       0.00     115.5752,     18.9536 
4      65.00       0.00      70.00       0.00      30.00       0.00      25.00       0.00     132.0691,     75.5492 
4      70.00       0.00      75.00       0.00      35.00       0.00      30.00       0.00     220.2568,     30.7665 
4      75.00       0.00      80.00       0.00      40.00       0.00      35.00       0.00     305.8882,     48.5115 
4      80.00       0.00      85.00       0.00      45.00       0.00      40.00       0.00      72.9370,      3.2369 
4      85.00       0.00      90.00       0.00      50.00       0.00      45.00       0.00     169.3018,     -1.5228 
4      90.00       0.00      95.00       0.00      55.00       0.00      50.00       0.00     307.3640,     19.5169 
4      95.00       0.00     100.00       0.00      60.00       0.00      55.00       0.00     299.5691,     41.7173 
4     100.00       0.00     105.00       0.00      65.00       0.00      60.00       0.00     140.8338,     -1.8752 
4     105.00       0.00     110.00       0.00      70.00       0.00      65.00       0.00      69.5276,     46.2172 
4     110.00       0.00     115.00       0.00      75.00       0.00      70.00       0.00      78.5030,    274.7130 
4     115.00       0.00     120.00       0.00      80.00       0.00      75.00       0.00      56.6111,   -360.0150 
4     120.00       0.00     125.00       0.00      85.00       0.00      80.00       0.00      28.1700,    -39.7895 
4     125.00       0.00     130.00       0.00      90.00       0.00      85.00       0.00      34.5791,    -84.0841 
4     130.00       0.00     135.00       0.00      95.00       0.00      90.00       0.00      45.7720,     41.0095 
4     135.00       0.00     140.00       0.00     100.00       0.00      95.00       0.00      33.3460,     -8.4480 
4     140.00       0.00     145.00       0.00     105.00       0.00     100.00       0.00      51.9194,     28.7806 
4     145.00       0.00     150.00       0.00     110.00       0.00     105.00       0.00      56.2775,     60.5633 
4     150.00       0.00     155.00       0.00     115.00       0.00     110.00       0.00     163.7506,      5.1113 
4     155.00       0.00     160.00       0.00     120.00       0.00     115.00       0.00      91.3671,   -289.0710 
4     160.00       0.00     165.00       0.00     125.00       0.00     120.00       0.00      44.2004,     86.9569 
4     165.00       0.00     170.00       0.00     130.00       0.00     125.00       0.00      52.6227,     -5.7371 
4     170.00       0.00     175.00       0.00     135.00       0.00     130.00       0.00      55.4876,     82.5643 
4     175.00       0.00     180.00       0.00     140.00       0.00     135.00       0.00      29.4572,    -30.5829 
4     180.00       0.00     185.00       0.00     145.00       0.00     140.00       0.00      25.3526,     69.0170 
4     185.00       0.00     190.00       0.00     150.00       0.00     145.00       0.00      23.1663,     69.8945 
4     190.00       0.00     195.00       0.00     155.00       0.00     150.00       0.00      56.1452,     74.6688 
4     195.00       0.00     200.00       0.00     160.00       0.00     155.00       0.00      35.7481,     85.4391 
4      60.00       0.00      75.00       0.00      15.00       0.00       0.00       0.00      27.9306,    109.7430 
4      65.00       0.00      80.00       0.00      20.00       0.00       5.00       0.00      32.7903,     44.4227 
4      70.00       0.00      85.00       0.00      25.00       0.00      10.00       0.00      47.3267,     -1.2232 
4      75.00       0.00      90.00       0.00      30.00       0.00      15.00       0.00      62.0647,     50.0244 
4      80.00       0.00      95.00       0.00      35.00       0.00      20.00       0.00      88.7650,     38.8946 
4      85.00       0.00     100.00       0.00      40.00       0.00      25.00       0.00     123.9815,     34.8415 
4      90.00       0.00     105.00       0.00      45.00       0.00      30.00       0.00      89.6752,     60.5945 
4      95.00       0.00     110.00       0.00      50.00       0.00      35.00       0.00      61.0672,      6.4232 
4     100.00       0.00     115.00       0.00      55.00       0.00      40.00       0.00      48.6282,    116.6700 
4     105.00       0.00     120.00       0.00      60.00       0.00      45.00       0.00      48.1447,     10.0633 
4     110.00       0.00     125.00       0.00      65.00       0.00      50.00       0.00      35.1710,    -30.1208 
4     115.00       0.00     130.00       0.00      70.00       0.00      55.00       0.00      25.0208,   -203.1000 
4     120.00       0.00     135.00       0.00      75.00       0.00      60.00       0.00      19.0213,    -98.8604 
4     125.00       0.00     140.00       0.00      80.00       0.00      65.00       0.00      21.3272,     73.1901 
4     130.00       0.00     145.00       0.00      85.00       0.00      70.00       0.00      20.0323,     44.9553 
4     135.00       0.00     150.00       0.00      90.00       0.00      75.00       0.00      15.5058,    -69.9995 
4     140.00       0.00     155.00       0.00      95.00       0.00      80.00       0.00      26.1244,     -1.3648 
4     145.00       0.00     160.00       0.00     100.00       0.00      85.00       0.00      36.4535,     74.4709 
4     150.00       0.00     165.00       0.00     105.00       0.00      90.00       0.00      58.7529,     88.9380 
4     155.00       0.00     170.00       0.00     110.00       0.00      95.00       0.00      53.8688,    139.8700 
4     160.00       0.00     175.00       0.00     115.00       0.00     100.00       0.00      54.9068,    164.5410 
4     165.00       0.00     180.00       0.00     120.00       0.00     105.00       0.00      48.4854,      0.0788 
4     170.00       0.00     185.00       0.00     125.00       0.00     110.00       0.00      36.4369,     58.8219 
4     175.00       0.00     190.00       0.00     130.00       0.00     115.00       0.00      30.6514,    110.7200 
4     180.00       0.00     195.00       0.00     135.00       0.00     120.00       0.00      28.1810,     49.8496 
4     185.00       0.00     200.00       0.00     140.00       0.00     125.00       0.00      23.0447,    -13.2534 
4      60.00       0.00      70.00       0.00      10.00       0.00       0.00       0.00      25.9227,    109.4400 
4      65.00       0.00      75.00       0.00      15.00       0.00       5.00       0.00      25.8386,    275.4780 
4      70.00       0.00      80.00       0.00      20.00       0.00      10.00       0.00      32.7169,     87.4164 
4      75.00       0.00      85.00       0.00      25.00       0.00      15.00       0.00      50.3823,     52.1008 
4      80.00       0.00      90.00       0.00      30.00       0.00      20.00       0.00      56.3143,     25.2333 
4      85.00       0.00      95.00       0.00      35.00       0.00      25.00       0.00      99.8607,     38.7160 
4      90.00       0.00     100.00       0.00      40.00       0.00      30.00       0.00     137.2083,     38.3121 
4      95.00       0.00     105.00       0.00      45.00       0.00      35.00       0.00      62.6711,    111.0350 
4     100.00       0.00     110.00       0.00      50.00       0.00      40.00       0.00      36.7617,    -70.2976 
4     105.00       0.00     115.00       0.00      55.00       0.00      45.00       0.00      37.1243,    366.3340 
4     110.00       0.00     120.00       0.00      60.00       0.00      50.00       0.00      40.9201,     13.5883 
4     115.00       0.00     125.00       0.00      65.00       0.00      55.00       0.00      25.3926,   -432.7860 
4     120.00       0.00     130.00       0.00      70.00       0.00      60.00       0.00      17.2310,    -68.9461 
4     125.00       0.00     135.00       0.00      75.00       0.00      65.00       0.00      22.1704,    101.8760 
4     130.00       0.00     140.00       0.00      80.00       0.00      70.00       0.00      20.7094,     -3.2568 
4     135.00       0.00     145.00       0.00      85.00       0.00      75.00       0.00      16.2552,     69.2690 
4     140.00       0.00     150.00       0.00      90.00       0.00      80.00       0.00      16.8887,     -6.0905 
4     145.00       0.00     155.00       0.00      95.00       0.00      85.00       0.00      29.0243,    -24.9479 
4     150.00       0.00     160.00       0.00     100.00       0.00      90.00       0.00      49.6711,     -2.3018 
4     155.00       0.00     165.00       0.00     105.00       0.00      95.00       0.00      50.4643,    201.3300 
4     160.00       0.00     170.00       0.00     110.00       0.00     100.00       0.00      51.4573,    239.6800 
4     165.00       0.00     175.00       0.00     115.00       0.00     105.00       0.00      50.4969,    331.6180 
4     170.00       0.00     180.00       0.00     120.00       0.00     110.00       0.00      44.3034,      1.0026 
4     175.00       0.00     185.00       0.00     125.00       0.00     115.00       0.00      31.0575,   -120.5820 
4     180.00       0.00     190.00       0.00     130.00       0.00     120.00       0.00      27.4923,     24.3440 
4     185.00       0.00     195.00       0.00     135.00       0.00     125.00       0.00      28.6821,     -0.0061 
4     190.00       0.00     200.00       0.00     140.00       0.00     130.00       0.00      17.8246,   -187.0000 
4      80.00       0.00      90.00       0.00      10.00       0.00       0.00       0.00       5.8179,    901.0000 
4      85.00       0.00      95.00       0.00      15.00       0.00       5.00       0.00      20.2580,   -159.6350 
4      90.00       0.00     100.00       0.00      20.00       0.00      10.00       0.00      21.6659,    115.4310 
4      95.00       0.00     105.00       0.00      25.00       0.00      15.00       0.00      18.3345,    901.0000 
4     100.00       0.00     110.00       0.00      30.00       0.00      20.00       0.00      20.0199,    552.1530 
4     105.00       0.00     115.00       0.00      35.00       0.00      25.00       0.00      14.0663,    901.0000 
4     110.00       0.00     120.00       0.00      40.00       0.00      30.00       0.00      31.5761,   -132.1570 
4     115.00       0.00     125.00       0.00      45.00       0.00      35.00       0.00      30.1295,    901.0000 
4     120.00       0.00     130.00       0.00      50.00       0.00      40.00       0.00      11.1427,    351.7990 
4     125.00       0.00     135.00       0.00      55.00       0.00      45.00       0.00      19.4556,    200.8510 
4     130.00       0.00     140.00       0.00      60.00       0.00      50.00       0.00      14.5660,    901.0000 
4     135.00       0.00     145.00       0.00      65.00       0.00      55.00       0.00      15.5364,     74.2943 
4     140.00       0.00     150.00       0.00      70.00       0.00      60.00       0.00       9.6830,    -40.9624 
4     145.00       0.00     155.00       0.00      75.00       0.00      65.00       0.00      17.6344,    437.3580 
4     150.00       0.00     160.00       0.00      80.00       0.00      70.00       0.00      28.1482,    326.2550 
4     155.00       0.00     165.00       0.00      85.00       0.00      75.00       0.00      23.1258,    198.6220 
4     160.00       0.00     170.00       0.00      90.00       0.00      80.00       0.00      20.3202,    482.8570 
4     165.00       0.00     175.00       0.00      95.00       0.00      85.00       0.00      24.5394,    -12.0678 
4     170.00       0.00     180.00       0.00     100.00       0.00      90.00       0.00      27.1931,     72.2252 
4     175.00       0.00     185.00       0.00     105.00       0.00      95.00       0.00      33.8108,    112.4980 
4     180.00       0.00     190.00       0.00     110.00       0.00     100.00       0.00      32.4564,     16.7790 
4     185.00       0.00     195.00       0.00     115.00       0.00     105.00       0.00      31.9079,   -156.8470 
4     190.00       0.00     200.00       0.00     120.00       0.00     110.00       0.00      28.1941,    -35.5911 
4      90.00       0.00     105.00       0.00      15.00       0.00       0.00       0.00      11.7582,     79.9769 
4      95.00       0.00     110.00       0.00      20.00       0.00       5.00       0.00      11.3879,    369.8320 
4     100.00       0.00     115.00       0.00      25.00       0.00      10.00       0.00      11.0463,    901.0000 
4     105.00       0.00     120.00       0.00      30.00       0.00      15.00       0.00      17.7235,    -80.3233 
4     110.00       0.00     125.00       0.00      35.00       0.00      20.00       0.00      17.5717,    -81.3311 
4     115.00       0.00     130.00       0.00      40.00       0.00      25.00       0.00      32.1826,   -535.2290 
4     120.00       0.00     135.00       0.00      45.00       0.00      30.00       0.00      15.3044,    -13.5293 
4     125.00       0.00     140.00       0.00      50.00       0.00      35.00       0.00      16.5370,    120.9720 
4     130.00       0.00     145.00       0.00      55.00       0.00      40.00       0.00      11.7551,    -31.2160 
4     135.00       0.00     150.00       0.00      60.00       0.00      45.00       0.00      11.9425,   -109.7630 
4     140.00       0.00     155.00       0.00      65.00       0.00      50.00       0.00      23.1881,    -38.0109 
4     145.00       0.00     160.00       0.00      70.00       0.00      55.00       0.00      18.3837,    236.1490 
4     150.00       0.00     165.00       0.00      75.00       0.00      60.00       0.00      18.7639,   -111.5960 
4     155.00       0.00     170.00       0.00      80.00       0.00      65.00       0.00      19.4032,    -81.9972 
4     160.00       0.00     175.00       0.00      85.00       0.00      70.00       0.00      21.1489,     12.3161 
4     165.00       0.00     180.00       0.00      90.00       0.00      75.00       0.00      24.0448,      2.5626 
4     170.00       0.00     185.00       0.00      95.00       0.00      80.00       0.00      21.3798,    -59.4137 
4     175.00       0.00     190.00       0.00     100.00       0.00      85.00       0.00      24.4731,    -92.2223 
4     180.00       0.00     195.00       0.00     105.00       0.00      90.00       0.00      26.9448,   -303.7020 
4     120.00       0.00     135.00       0.00      15.00       0.00       0.00       0.00      13.9993,     -3.8665 
4     125.00       0.00     140.00       0.00      20.00       0.00       5.00       0.00      13.4056,    297.0800 
4     130.00       0.00     145.00       0.00      25.00       0.00      10.00       0.00       6.5242,   -834.5950 
4     135.00       0.00     150.00       0.00      30.00       0.00      15.00       0.00       8.5533,      9.8393 
4     140.00       0.00     155.00       0.00      35.00       0.00      20.00       0.00      15.8210,    817.9680 
4     145.00       0.00     160.00       0.00      40.00       0.00      25.00       0.00      18.0705,    658.4640 
4     150.00       0.00     165.00       0.00      45.00       0.00      30.00       0.00      19.8203,    729.7000 
4     155.00       0.00     170.00       0.00      50.00       0.00      35.00       0.00      13.5206,   -124.6510 
4     160.00       0.00     175.00       0.00      55.00       0.00      40.00       0.00      13.3703,   -280.9990 
4     165.00       0.00     180.00       0.00      60.00       0.00      45.00       0.00      28.5924,   -195.1670 
4     170.00       0.00     185.00       0.00      65.00       0.00      50.00       0.00      24.9304,    341.5270 
4     175.00       0.00     190.00       0.00      70.00       0.00      55.00       0.00      19.8767,     -2.0802 
4     180.00       0.00     195.00       0.00      75.00       0.00      60.00       0.00      21.7656,    486.8280 
4     185.00       0.00     200.00       0.00      80.00       0.00      65.00       0.00       7.5628,   -678.4980 
0
0
0
0
0
0
0
